SLAC Magnetic Measurements
Date: 11-11-2021
Time: 17:39:43

Project: LCLS-II
Magnet Type: Quad
Magnet Name: 4194
Serial Number: 
Run Number: 5
Measurement Device: 1DQB26
Operator: sda
Comment: Minor hysteresis loop 2.  0  to Max then down to 90%  then up to Max in 1% of Max steps
Test Currents for MAIN (A): 
      0.00    165.00    163.35    161.70    160.05    158.40    156.75    155.10    153.45    151.80    150.15    148.50    150.15    151.80    153.45
    155.10    156.75    158.40    160.05    161.70    163.35    165.00



                                 Integrated Gradient (Quadrupole) 

     MAIN   +/- sigma         BL         sigBL           TF        sigTF         THsp       sigTHsp   
            (A)                     (T)                       (T/A)                     (deg)      
 ------------+----------  -----------+-----------   ------------+------------  -----------+---------
     -0.0000     0.0001     0.034823    0.000006       0.000000    0.000000     45.5071    0.0093  
    165.0299     0.0132     5.217527    0.000204       0.031616    0.000004     45.5291    0.0001  
    163.5346     0.0016     5.176444    0.000021       0.031653    0.000000     45.5293    0.0001  
    161.9010     0.0009     5.129801    0.000016       0.031685    0.000000     45.5297    0.0001  
    160.2433     0.0012     5.081451    0.000014       0.031711    0.000000     45.5300    0.0001  
    158.5932     0.0008     5.032727    0.000007       0.031734    0.000000     45.5303    0.0001  
    156.9324     0.0008     4.983246    0.000021       0.031754    0.000000     45.5307    0.0001  
    155.2783     0.0037     4.933066    0.000039       0.031769    0.000001     45.5310    0.0001  
    153.6144     0.0007     4.883352    0.000012       0.031790    0.000000     45.5313    0.0000  
    151.9590     0.0012     4.833152    0.000009       0.031806    0.000000     45.5314    0.0000  
    150.2970     0.0004     4.782541    0.000013       0.031821    0.000000     45.5315    0.0001  
    148.6438     0.0006     4.732006    0.000006       0.031835    0.000000     45.5317    0.0001  
    149.9944     0.0005     4.769187    0.000010       0.031796    0.000000     45.5318    0.0000  
    151.5805     0.0004     4.814419    0.000015       0.031761    0.000000     45.5320    0.0001  
    153.2370     0.0009     4.862696    0.000013       0.031733    0.000000     45.5322    0.0001  
    154.8997     0.0036     4.912063    0.000172       0.031711    0.000002     45.5325    0.0001  
    156.5572     0.0031     4.961451    0.000127       0.031691    0.000001     45.5327    0.0001  
    158.2140     0.0033     5.011193    0.000061       0.031674    0.000001     45.5329    0.0001  
    159.9025     0.0796     5.061156    0.000149       0.031652    0.000017     45.5330    0.0001  
    161.5317     0.0223     5.111363    0.000016       0.031643    0.000004     45.5332    0.0001  
    163.1833     0.0006     5.161221    0.000014       0.031628    0.000000     45.5335    0.0000  
    164.8151     0.0009     5.211388    0.000020       0.031620    0.000000     45.5337    0.0001  
