SLAC Magnetic Measurements
Date: 11-12-2021
Time: 13:57:56

Project: LCLS-II
Magnet Type: Quad
Magnet Name: 4194
Serial Number: 
Run Number: 8
Measurement Device: 1DQB26
Operator: sda
Comment: Hysteresis Trial 2. 0,0  0.5, 0.4, 0.6, 0.3, 0.7, 0.2, 0.8, 0.1, 0.9 * Max current
Test Currents for MAIN (A): 
      0.00     82.50     66.00     99.00     49.50    115.50     33.00    132.00     16.50    148.50



                                 Integrated Gradient (Quadrupole) 

     MAIN   +/- sigma         BL         sigBL           TF        sigTF         THsp       sigTHsp   
            (A)                     (T)                       (T/A)                     (deg)      
 ------------+----------  -----------+-----------   ------------+------------  -----------+---------
      0.0001     0.0000     0.034637    0.000012       0.000000    0.000000     45.4959    0.0127  
     82.4673     0.0027     2.617025    0.000038       0.031734    0.000002     45.5307    0.0002  
     65.9415     0.0010     2.115189    0.000009       0.032077    0.000001     45.5301    0.0001  
     98.9886     0.0031     3.140303    0.000039       0.031724    0.000001     45.5307    0.0001  
     49.4789     0.0022     1.601295    0.000019       0.032363    0.000002     45.5295    0.0002  
    115.4344     0.0059     3.659747    0.000060       0.031704    0.000002     45.5308    0.0001  
     32.9598     0.0018     1.079315    0.000016       0.032746    0.000002     45.5290    0.0004  
    131.9687     0.0094     4.180759    0.000097       0.031680    0.000003     45.5309    0.0002  
     16.4405     0.0012     0.555865    0.000017       0.033811    0.000004     45.5286    0.0002  
    148.4840     0.0132     4.699517    0.000132       0.031650    0.000004     45.5310    0.0001  
