        H             B            I       
      (A/m)          (T)          (A)      
  -------------  -----------  -----------  
      -226.1808    -1.357174    -0.002703
      -153.9286    -1.287397     0.014287
       -91.8859    -1.167144     0.034363
       -43.1942    -0.999647     0.055227
       -10.9949    -0.829250     0.072384
        22.7751    -0.502759     0.097084
        28.2726    -0.372349     0.105696
        35.3407    -0.166574     0.117182
        36.1261    -0.009397     0.125623
        40.0528     0.111742     0.131439
        43.9796     0.163251     0.134301
        47.9063     0.287002     0.140898
        53.4038     0.382746     0.146500
        55.7598     0.424797     0.149303
        62.0426     0.516666     0.155119
        69.8961     0.598897     0.160780
        74.6082     0.638101     0.163836
        81.6764     0.712067     0.169480
        92.6713     0.783003     0.175319
        98.1687     0.812643     0.178137
       109.9490     0.874806     0.183833
       136.6509     0.998523     0.196107
       167.2795     1.094437     0.207528
       193.1961     1.155738     0.216168
       223.8247     1.210568     0.224809
       271.7311     1.278129     0.237061
       312.5693     1.315754     0.245462
       359.6903     1.349048     0.254128
       435.0839     1.385821     0.265639
       493.9851     1.407879     0.274283
       600.0074     1.435600     0.287573
       700.5322     1.454390     0.298953
       775.9258     1.465964     0.307407
       853.6754     1.476379     0.316079
       966.7658     1.488666     0.327574
      1058.6518     1.497581     0.336966
      1144.2549     1.504831     0.345614
      1261.2721     1.513637     0.357165
      1346.8752     1.519551     0.365638
      1435.6198     1.525198     0.374317
      1576.9828     1.533507     0.387957
      1665.7273     1.538236     0.396534
      2732.2326     1.584792     0.496290
      3821.5130     1.620958     0.598381
      4890.3743     1.651099     0.698259
      5922.3242     1.677141     0.794850
      7017.1021     1.702571     0.897626
      8063.9736     1.725130     0.996622
      9117.9133     1.746409     1.096561
     10183.6332     1.766478     1.197769
     11228.9340     1.785193     1.297578
     12263.2399     1.802784     1.396651
     13335.2427     1.820077     1.499659
     14322.4276     1.835439     1.595295
     15352.8068     1.850816     1.695157
     16406.7464     1.865658     1.797182
     17433.1989     1.879495     1.897143
     18426.6666     1.892335     1.994527
     23559.7141     1.951337     2.499483
     28518.4138     1.997649     3.001678
     33225.0163     2.032425     3.496235
     37776.9047     2.057558     3.998028
     46542.1959     2.087440     4.999026
     55439.4258     2.106183     6.001972
     64137.9622     2.121050     6.994089
     72513.7197     2.133979     7.996986
     79870.8783     2.144729     8.998240
     85680.8975     2.152882     9.997373
     93946.7060     2.164292    12.001194
     86944.5256     2.154552     9.997066
     81816.1902     2.147409     8.997892
     74769.2449     2.137282     7.996568
     66388.7752     2.124716     6.993654
     57661.1809     2.110468     6.001562
     48705.8351     2.093031     4.998624
     39888.7108     2.067084     3.997680
     30802.9969     2.016371     3.001369
     20843.1885     1.922405     1.994289
     15769.0423     1.857572     1.499450
     10529.1872     1.774192     0.996423
      9498.8080     1.755321     0.897470
      8421.3078     1.734191     0.794689
      7407.4210     1.712979     0.698121
      6350.3399     1.689503     0.598253
      5264.9863     1.663491     0.496197
      4202.4077     1.635675     0.396433
      3174.3846     1.605379     0.298872
      2082.7481     1.567515     0.196040
      1956.3068     1.562651     0.183762
      1872.2744     1.559133     0.175246
      1752.9012     1.554238     0.163800
      1664.1566     1.550273     0.155081
      1574.6267     1.546095     0.146467
      1448.1854     1.540028     0.134251
      1361.0115     1.535483     0.125576
      1273.8377     1.530939     0.117187
      1156.0352     1.524307     0.105694
      1068.8613     1.519068     0.097099
       936.1372     1.509933     0.083878
       822.2614     1.500991     0.072397
       736.6583     1.493565     0.063726
       654.1965     1.485539     0.055287
       546.6036     1.472724     0.043893
       463.3565     1.459826     0.034423
       387.9629     1.445731     0.025820
       300.7890     1.421536     0.014375
       243.4585     1.398019     0.005769
       197.9082     1.369094    -0.002589
       161.7821     1.333156    -0.010982
       130.3681     1.288555    -0.019683
        93.4566     1.217231    -0.031237
        72.2522     1.156729    -0.039872
        59.6866     1.114577    -0.045512
        50.2624     1.084931    -0.049301
        38.4821     1.035986    -0.054985
        25.9165     0.982507    -0.060815
        21.2044     0.957381    -0.063635
        10.9949     0.899542    -0.069278
        -5.4974     0.801190    -0.077965
       -20.4191     0.654854    -0.089381
       -33.7700     0.451360    -0.102842
       -39.2675     0.305232    -0.111519
       -44.7649     0.081752    -0.123029
       -49.4770    -0.093962    -0.131491
       -54.1891    -0.259134    -0.140114
       -68.3254    -0.470594    -0.152334
       -79.3203    -0.596861    -0.160953
       -92.6713    -0.711834    -0.169579
      -111.5197    -0.847526    -0.180992
      -117.0171    -0.873746    -0.183802
      -128.7974    -0.928889    -0.189411
      -153.1432    -1.018482    -0.199075
      -160.9967    -1.040215    -0.201931
      -225.3954    -1.193244    -0.222112
      -315.7107    -1.305708    -0.243003
      -497.9119    -1.402732    -0.271600
      -785.3500    -1.463653    -0.305078
     -1155.2498    -1.503223    -0.343010
     -1447.4000    -1.524044    -0.371500
     -1771.7496    -1.542187    -0.402479
     -2840.6109    -1.587459    -0.502629
     -3936.1741    -1.623082    -0.604666
     -5007.3915    -1.652846    -0.704619
     -6034.6292    -1.678639    -0.800946
     -7127.8364    -1.704091    -0.904095
     -8177.0640    -1.726565    -1.003148
    -18590.0194    -1.894080    -2.001325
    -37875.8588    -2.058092    -4.005366
    -55528.9557    -2.106466    -6.009315
    -72606.3910    -2.134137    -8.005378
    -85743.7255    -2.152982   -10.005798
    -94001.6805    -2.164292   -12.010029
    -87009.7096    -2.154744   -10.005712
    -74880.7646    -2.137699    -8.005314
    -57782.1248    -2.110684    -6.009274
    -40012.0108    -2.067534    -4.005349
    -20957.0642    -1.923523    -2.001335
    -10635.2094    -1.775586    -1.003176
     -8512.4084    -1.735355    -0.800956
     -6439.8698    -1.690869    -0.604663
     -4284.8695    -1.637171    -0.402483
     -3249.7782    -1.607259    -0.305078
     -2158.1417    -1.569880    -0.201897
     -2031.7004    -1.564837    -0.189381
     -1943.7412    -1.561456    -0.180980
     -1826.7241    -1.556724    -0.169559
     -1736.4088    -1.552907    -0.160908
     -1648.4496    -1.549056    -0.152286
     -1521.2229    -1.543134    -0.140063
     -1432.4784    -1.538856    -0.131450
     -1344.5192    -1.534532    -0.122962
     -1225.1460    -1.528125    -0.111462
     -1137.1868    -1.522991    -0.102780
      -999.7505    -1.514260    -0.089331
      -882.7334    -1.505959    -0.077904
      -797.1302    -1.499053    -0.069221
      -713.8831    -1.491569    -0.060767
      -603.1488    -1.479474    -0.049263
      -515.1896    -1.467744    -0.039813
      -438.2253    -1.454890    -0.031181
      -343.9833    -1.433155    -0.019629
      -281.1553    -1.411977    -0.010926
      -229.3222    -1.386160    -0.002528