        H             B            I       
      (A/m)          (T)          (A)      
  -------------  -----------  -----------  
      -207.3324    -1.393027    -0.002661
      -127.2267    -1.330182     0.014322
       -72.2522    -1.211369     0.034401
       -31.4140    -1.038974     0.055266
        -5.4974    -0.858443     0.072404
        17.2777    -0.504697     0.097122
        20.4191    -0.362877     0.105738
        23.5605    -0.140113     0.117221
        23.5605    -0.027919     0.122854
        28.2726     0.102178     0.128671
        31.4140     0.219041     0.134312
        34.5554     0.345766     0.140926
        39.2675     0.444038     0.146536
        41.6235     0.487840     0.149341
        46.3356     0.582943     0.155148
        50.2624     0.667764     0.160826
        55.7598     0.707756     0.163882
        60.4719     0.783784     0.169511
        69.1108     0.855598     0.175341
        73.0375     0.885739     0.178167
        81.6764     0.948614     0.183871
       106.0222     1.072913     0.196147
       132.7241     1.166917     0.207553
       155.4993     1.226853     0.216207
       184.5572     1.278538     0.224843
       239.5317     1.339785     0.237104
       282.7260     1.371261     0.245515
       338.4858     1.397031     0.254150
       429.5864     1.423342     0.265668
       510.4775     1.437694     0.274296
       643.9870     1.454741     0.287582
       766.5016     1.465797     0.298974
       856.8168     1.472595     0.307430
       953.4149     1.478978     0.316107
      1080.6416     1.486687     0.327608
      1183.5224     1.492389     0.337003
      1278.5498     1.497123     0.345646
      1407.3472     1.503062     0.357188
      1503.1599     1.507363     0.365645
      1596.6165     1.511540     0.374363
      1748.1891     1.517967     0.387987
      1843.2164     1.521563     0.396565
      2952.1306     1.560499     0.496324
      4056.3326     1.593716     0.598412
      5133.8328     1.622290     0.698301
      6168.1387     1.647306     0.794881
      7262.9166     1.671896     0.897662
      8307.4321     1.693938     0.996648
      9357.4450     1.714602     1.096604
     10420.8089     1.734291     1.197829
     11460.6123     1.752704     1.297619
     12491.7768     1.769930     1.396701
     13558.2821     1.786916     1.499695
     14540.7549     1.801984     1.595339
     15565.6366     1.816977     1.695201
     16613.2935     1.831510     1.797224
     17632.6778     1.845230     1.897182
     18624.5748     1.857987     1.994591
     23734.8471     1.916333     2.499527
     28688.0494     1.962463     3.001720
     33420.5684     1.997619     3.496280
     38032.1435     2.023234     3.998097
     46952.1486     2.053598     4.999082
     55952.2593     2.072201     6.002058
     64695.5607     2.086869     6.994165
     73094.0933     2.099849     7.997066
     80461.4615     2.110538     8.998331
     86278.5488     2.118768     9.997480
     94548.2841     2.130064    12.001297
     87539.0355     2.120408     9.997173
     82404.4174     2.113126     8.997974
     75350.4038     2.103102     7.996668
     66947.1591     2.090374     6.993752
     58181.0826     2.076049     6.001650
     49142.4897     2.058705     4.998686
     40179.2903     2.032634     3.997737
     30974.9886     1.980973     3.001405
     21016.7508     1.887480     1.994345
     15972.4479     1.823521     1.499486
     10755.3680     1.741183     0.996468
      9729.7009     1.722406     0.897510
      8654.5568     1.701538     0.794734
      7644.5967     1.680978     0.698149
      6588.3010     1.658093     0.598286
      5501.3766     1.632987     0.496223
      4437.2274     1.605986     0.396455
      3398.2094     1.576968     0.298902
      2283.7977     1.542210     0.196065
      2154.2150     1.537920     0.183790
      2063.1144     1.534856     0.175280
      1942.1705     1.530559     0.163817
      1847.9285     1.527379     0.155099
      1754.4719     1.524091     0.146494
      1622.5331     1.519185     0.134275
      1527.5057     1.515557     0.125618
      1436.4051     1.512006     0.117207
      1309.9638     1.506754     0.105732
      1214.9364     1.502754     0.097122
      1067.2906     1.496232     0.083902
       941.6346     1.490274     0.072406
       845.0366     1.485462     0.063730
       751.5799     1.480223     0.055302
       622.7825     1.472359     0.043894
       518.3310     1.464752     0.034456
       424.8743     1.456378     0.025852
       304.7158     1.441330     0.014396
       234.8196     1.424690     0.005798
       181.4158     1.401304    -0.002556
       142.9337     1.369113    -0.010969
       111.5197     1.326939    -0.019671
        81.6764     1.256764    -0.031224
        60.4719     1.196116    -0.039865
        51.0477     1.153630    -0.045494
        43.1942     1.123679    -0.049293
        34.5554     1.074024    -0.054964
        24.3458     1.018570    -0.060788
        19.6337     0.991940    -0.063617
        14.1363     0.932015    -0.069249
         1.5707     0.827498    -0.077938
       -10.9949     0.669609    -0.089365
       -21.2044     0.448521    -0.102810
       -22.7751     0.290001    -0.111511
       -25.1312     0.049677    -0.123012
       -26.7019    -0.140377    -0.131467
       -32.9847    -0.310935    -0.140089
       -42.4089    -0.530847    -0.152314
       -51.8331    -0.661188    -0.160921
       -62.8280    -0.779743    -0.169567
       -77.7496    -0.919268    -0.180997
       -81.6764    -0.945607    -0.183789
       -91.8859    -1.001323    -0.189402
      -110.7343    -1.090924    -0.199049
      -117.0171    -1.112178    -0.201915
      -179.8451    -1.260476    -0.222096
      -275.6578    -1.361860    -0.242973
      -498.6972    -1.433552    -0.271586
      -854.4608    -1.470660    -0.305069
     -1280.9058    -1.495859    -0.342983
     -1598.9726    -1.510648    -0.371497
     -1943.7412    -1.524639    -0.402463
     -3047.9433    -1.563061    -0.502612
     -4162.3549    -1.595920    -0.604645
     -5241.4258    -1.624442    -0.704599
     -6268.6635    -1.649198    -0.800930
     -7362.6561    -1.673624    -0.904081
     -8407.9569    -1.695414    -1.003117
    -18774.5766    -1.860118    -2.001287
    -38124.0294    -2.024005    -4.005351
    -56030.7943    -2.072598    -6.009308
    -73171.0576    -2.100192    -8.005376
    -86328.0259    -2.118763   -10.005808
    -94586.7663    -2.130064   -12.010050
    -87589.2979    -2.120431   -10.005740
    -75444.6458    -2.103435    -8.005331
    -58292.6023    -2.076511    -6.009271
    -40290.0247    -2.033081    -4.005347
    -21122.7731    -1.888065    -2.001328
    -10850.3953    -1.741985    -1.003153
     -8733.8771    -1.702409    -0.800922
     -6666.8360    -1.658753    -0.604617
     -4508.6942    -1.606500    -0.402428
     -3464.9641    -1.577681    -0.305040
     -2350.5525    -1.543166    -0.201867
     -2218.6137    -1.538662    -0.189357
     -2129.8691    -1.535530    -0.180943
     -2005.7838    -1.531273    -0.169532
     -1913.8979    -1.527949    -0.160876
     -1822.0120    -1.524693    -0.152269
     -1686.1464    -1.519726    -0.140042
     -1591.1191    -1.516157    -0.131403
     -1501.5892    -1.512577    -0.122944
     -1372.0064    -1.507572    -0.111453
     -1276.9791    -1.503692    -0.102751
     -1126.9772    -1.496991    -0.089303
      -998.1798    -1.491314    -0.077867
      -900.0111    -1.486616    -0.069184
      -805.7691    -1.481643    -0.060734
      -675.4010    -1.474212    -0.049221
      -569.3787    -1.467345    -0.039784
      -473.5660    -1.459974    -0.031142
      -348.6954    -1.446729    -0.019601
      -268.5897    -1.432639    -0.010901
      -204.9763    -1.412974    -0.002510