        H             B            I       
      (A/m)          (T)          (A)      
  -------------  -----------  -----------  
         0.0000    -0.000128    -0.002721
         5.4974     0.027805     0.002865
         8.6388     0.061040     0.008667
        13.3509     0.096454     0.014281
        15.7070     0.116459     0.017096
        15.7070     0.161374     0.022933
        18.8484     0.208241     0.028547
        20.4191     0.259369     0.034352
        21.9898     0.311755     0.040036
        24.3458     0.373257     0.046598
        25.9165     0.426098     0.052211
        29.0579     0.483094     0.058024
        30.6286     0.537840     0.063686
        32.9847     0.595855     0.069530
        36.1261     0.651722     0.075182
        40.8382     0.708279     0.081006
        42.4089     0.763073     0.086693
        52.6184     0.862547     0.096964
        56.5452     0.911938     0.102569
        59.6866     0.937316     0.105585
        70.6815     1.037827     0.117079
        73.0375     1.058283     0.119858
        79.3203     1.102499     0.125504
        87.9592     1.146659     0.131318
        91.8859     1.166450     0.134176
       100.5248     1.213833     0.140770
       109.9490     1.251261     0.146399
       114.6611     1.268254     0.149203
       125.6560     1.305152     0.155017
       135.8655     1.338639     0.160686
       144.5044     1.354638     0.163739
       157.0700     1.385303     0.169405
       171.2063     1.414312     0.175240
       181.4158     1.426545     0.178058
       201.8349     1.451842     0.183768
       252.8827     1.499520     0.195961
       315.7107     1.533811     0.207387
       373.0412     1.553646     0.216039
       440.5813     1.569537     0.224681
       552.1010     1.587190     0.236935
       631.4214     1.596508     0.245355
       717.8099     1.604691     0.254027
       837.1831     1.614159     0.265547
       928.2837     1.620343     0.274202
      1070.4320     1.628960     0.287389
      1192.9466     1.635492     0.298788
      1281.6912     1.640021     0.307245
      1375.9332     1.644435     0.315938
      1501.5892     1.650090     0.327431
      1601.3286     1.654376     0.336837
      1695.5706     1.658182     0.345496
      1821.2266     1.663111     0.357038
      1912.3272     1.666532     0.365528
      2006.5692     1.670025     0.374247
      2152.6443     1.675463     0.387838
      2247.6716     1.678737     0.396410
      3343.2349     1.714320     0.496161
      4437.2274     1.745456     0.598261
      5507.6594     1.772638     0.698151
      6535.6825     1.796782     0.794818
      7625.7483     1.820578     0.897589
      8667.9077     1.841876     0.996586
      9717.9207     1.862058     1.096536
     10781.2845     1.881487     1.197817
     11821.0879     1.899475     1.297603
     12849.8964     1.916559     1.396696
     13914.8309     1.933312     1.499693
     14899.6598     1.948188     1.595426
     15926.8976     1.962993     1.695288
     16972.9838     1.977454     1.797315
     17997.8655     1.990961     1.897284
     18986.6211     2.003590     1.994737
     24089.0399     2.061424     2.499688
     29023.3939     2.107224     3.001924
     33711.1479     2.142138     3.496615
     38222.9835     2.167744     3.998502
     46828.0633     2.198508     4.999600
     55614.5588     2.217323     6.002697
     64250.2672     2.232120     6.994841
     72585.9719     2.245033     7.997724
     79848.1032     2.255652     8.999125
     85658.1223     2.263884     9.998308
     93944.3500     2.275279    12.002161
     86945.3109     2.265693     9.997871
     81817.7609     2.258585     8.998588
     74776.3130     2.248377     7.997146
     66416.2625     2.235768     6.994231
     57717.7261     2.221321     6.002108
     48826.7790     2.203678     4.999054
     40140.8082     2.176777     3.998050
     31074.7280     2.123866     3.001594
     21078.7935     2.029048     1.994497
     15989.7256     1.964247     1.499505
     10716.8858     1.881005     0.996477
      9677.8678     1.862117     0.897494
      8589.3727     1.841166     0.794718
      7562.9203     1.820239     0.698079
      6493.2736     1.797045     0.598195
      5391.4276     1.771400     0.496142
      4310.7860     1.744146     0.396394
      3257.6317     1.714626     0.298762
      2130.6545     1.679013     0.195941
      2000.2864     1.674636     0.183745
      1910.7565     1.671540     0.175226
      1785.1005     1.667115     0.163745
      1690.8585     1.663678     0.155011
      1595.8312     1.660225     0.146410
      1462.3217     1.655040     0.134181
      1368.0797     1.651340     0.125517
      1273.8377     1.647693     0.117080
      1147.3963     1.642391     0.105588
      1054.7250     1.638114     0.096982
       908.6499     1.631307     0.083859
       781.4232     1.624771     0.072363
       686.3959     1.619291     0.063667
       592.1539     1.613514     0.055232
       470.4246     1.604213     0.043826
       369.1145     1.594682     0.034375
       289.7941     1.583083     0.025752
       201.0496     1.559245     0.014285
       153.9286     1.533992     0.005680
       119.3732     1.502570    -0.002693
        95.0273     1.463875    -0.011108
        75.3936     1.416462    -0.019825
        51.0477     1.341615    -0.031370
        40.0528     1.278631    -0.040041
        31.4140     1.234997    -0.045681
        25.9165     1.204886    -0.049464
        19.6337     1.154929    -0.055146
        12.5656     1.099941    -0.060992
        11.7802     1.074125    -0.063800
         3.9267     1.015247    -0.069462
        -5.4974     0.914766    -0.078154
       -14.1363     0.764139    -0.089598
       -18.8484     0.557690    -0.102936
       -22.7751     0.408385    -0.111637
       -25.1312     0.179838    -0.123151
       -29.0579    -0.004277    -0.131618
       -32.9847    -0.167691    -0.140255
       -40.0528    -0.377650    -0.152484
       -48.6917    -0.501914    -0.161109
       -54.9745    -0.615674    -0.169756
       -68.3254    -0.751166    -0.181187
       -72.2522    -0.777321    -0.183990
       -79.3203    -0.831831    -0.189606
       -93.4566    -0.921506    -0.199179
       -98.9541    -0.942781    -0.202043
      -142.9337    -1.098899    -0.222256
      -212.8298    -1.214110    -0.243147
      -381.6801    -1.309460    -0.271790
      -702.8882    -1.358038    -0.305195
     -1118.3384    -1.386863    -0.343167
     -1435.6198    -1.402650    -0.371690
     -1781.9591    -1.417289    -0.402624
     -2897.1561    -1.456914    -0.502789
     -4023.3479    -1.490288    -0.604827
     -5114.9844    -1.518999    -0.704755
     -6158.7145    -1.544178    -0.801154
     -7267.6287    -1.568978    -0.904327
     -8327.0658    -1.591170    -1.003392
    -18805.9906    -1.757873    -2.001727
    -38131.0976    -1.924050    -4.005986
    -55577.6474    -1.973953    -6.010105
    -72596.9668    -2.001598    -8.006261
    -85734.3013    -2.020477   -10.006796
    -93994.6124    -2.031919   -12.011045
    -87010.4950    -2.022299   -10.006566
    -74891.7595    -2.005054    -8.005984
    -57839.4553    -1.978077    -6.009908
    -40260.9667    -1.933667    -4.005859
    -21191.0985    -1.786771    -2.001672
    -10815.8399    -1.639060    -1.003379
     -8673.4052    -1.599082    -0.801160
     -6575.7354    -1.554998    -0.604810
     -4387.7503    -1.502019    -0.402609
     -3329.0986    -1.472817    -0.305187
     -2202.1213    -1.437405    -0.202012
     -2067.8265    -1.432951    -0.189554
     -1979.8673    -1.429929    -0.181138
     -1852.6406    -1.425584    -0.169695
     -1760.7547    -1.422254    -0.161052
     -1664.9420    -1.418930    -0.152434
     -1531.4325    -1.413875    -0.140191
     -1435.6198    -1.410256    -0.131552
     -1343.7338    -1.406495    -0.123073
     -1214.1511    -1.401173    -0.111557
     -1118.3384    -1.397031    -0.102868
      -966.7658    -1.390175    -0.089498
      -839.5391    -1.383863    -0.078067
      -743.7264    -1.378694    -0.069381
      -650.2698    -1.373206    -0.060911
      -523.0431    -1.364531    -0.049387
      -420.1622    -1.355889    -0.039954
      -334.5591    -1.345905    -0.031284
      -237.1757    -1.325658    -0.019750
      -179.8451    -1.303369    -0.011030
      -141.3630    -1.274760    -0.002620
      -110.7343    -1.239521     0.005771
       -87.9592    -1.196101     0.014374
       -62.8280    -1.126495     0.025826
       -51.0477    -1.067371     0.034451
       -20.4191    -0.886643     0.055311
       -10.9949    -0.805908     0.063745
        -3.1414    -0.712800     0.072434
        14.9216    -0.370712     0.097075
        17.2777    -0.234587     0.105677
        20.4191    -0.020344     0.117161
        21.9898     0.089044     0.122783
        24.3458     0.216319     0.128620
        27.4872     0.326332     0.134271
        32.9847     0.446533     0.140870
        35.3407     0.539911     0.146478
        36.1261     0.581205     0.149289
        39.2675     0.670373     0.155106
        43.9796     0.750355     0.160776
        47.9063     0.788799     0.163831
        53.4038     0.860639     0.169469
        60.4719     0.929069     0.175296
        62.8280     0.957875     0.178127
        69.1108     1.018564     0.183828
        87.1738     1.139857     0.196066
       107.5929     1.234587     0.207485
       127.2267     1.295842     0.216135
       149.2165     1.350546     0.224789
       189.2693     1.417789     0.237030
       221.4687     1.454527     0.245433
       264.6629     1.486484     0.254109
       336.9151     1.520432     0.265616
       401.3138     1.539116     0.274261
       520.6870     1.560765     0.287487
       633.7774     1.574354     0.298896
       722.5220     1.582271     0.307345
       812.8372     1.589423     0.316033
       938.4932     1.598043     0.327520
      1042.1594     1.604091     0.336925
      1136.4014     1.609155     0.345577
      1263.6281     1.615711     0.357132
      1356.2994     1.620101     0.365603
      1452.1121     1.624480     0.374319
      1605.2554     1.631117     0.387915
      1699.4974     1.634889     0.396486
      2819.4064     1.675226     0.496264
      3935.3888     1.709018     0.598375
      5026.2399     1.738007     0.698219
      6074.6821     1.763453     0.794866
      7185.1670     1.788390     0.897651
      8242.2480     1.810642     0.996639
      9307.1826     1.831640     1.096585
     10383.1121     1.851672     1.197862
     11437.8371     1.870154     1.297652
     12478.4258     1.887637     1.396739
     13556.7114     1.904910     1.499734
     14550.9644     1.920072     1.595437
     15588.4118     1.935172     1.695294
     16645.4928     1.949925     1.797326
     17675.0867     1.963748     1.897284
     18674.0518     1.976533     1.994715
     23823.5916     2.035504     2.499674
     28797.9984     2.082151     3.001888
     33516.3811     2.117681     3.496543
     38058.0600     2.143699     3.998399
     46704.7633     2.174770     4.999456
     55522.6729     2.193690     6.002514
     64182.7271     2.208521     6.994641
     72536.4949     2.221353     7.997525
     79881.0879     2.232034     8.998866
     85686.3949     2.240192     9.998029
     93949.8474     2.251603    12.001847
