        H             B            I       
      (A/m)          (T)          (A)      
  -------------  -----------  -----------  
       147.6458     1.365434    -0.002694
       239.5317     1.387564     0.014293
       351.0514     1.416977     0.034349
       504.9800     1.441063     0.055222
       648.6991     1.455873     0.072357
       877.2359     1.473006     0.097052
       954.2002     1.477768     0.105664
      1060.2225     1.484048     0.117135
      1113.6263     1.486771     0.122761
      1167.0301     1.489514     0.128581
      1221.2192     1.492220     0.134230
      1284.8326     1.495168     0.140836
      1339.8071     1.497545     0.146461
      1365.7236     1.498559     0.149266
      1421.4835     1.501171     0.155079
      1478.0287     1.503472     0.160746
      1506.3013     1.504673     0.163793
      1560.4904     1.506972     0.169440
      1616.2503     1.509270     0.175269
      1644.5229     1.510337     0.178107
      1700.2827     1.512673     0.183787
      1822.7973     1.517524     0.196060
      1934.3170     1.521771     0.207471
      2019.1348     1.524825     0.216108
      2102.3819     1.527989     0.224754
      2222.5404     1.532297     0.236997
      2303.4315     1.535077     0.245419
      2388.2493     1.538048     0.254076
      2502.9104     1.541926     0.265582
      2586.1575     1.544669     0.274228
      2717.3109     1.548996     0.287501
      2827.2599     1.552512     0.298906
      2909.7217     1.555071     0.307343
      2994.5395     1.557670     0.316009
      3107.6299     1.561141     0.327494
      3199.5158     1.563863     0.336910
      3285.1190     1.566438     0.345551
      3396.6387     1.569728     0.357095
      3477.5297     1.572141     0.365565
      3563.1329     1.574576     0.374270
      3695.8570     1.578522     0.387889
      3779.1041     1.580892     0.396456
      4790.6349     1.608440     0.496227
      5814.7313     1.634054     0.598313
      6813.6964     1.657131     0.698187
      7776.5355     1.677898     0.794791
      8810.8414     1.699127     0.897569
      9807.4506     1.718228     0.996544
     10814.2692     1.736495     1.096509
     11836.7949     1.754153     1.197742
     12841.2575     1.770639     1.297535
     13839.4373     1.786340     1.396608
     14876.8847     1.802066     1.499611
     15838.1530     1.815880     1.595263
     16847.3278     1.829875     1.695115
     17872.9948     1.843406     1.797135
     18876.6721     1.856220     1.897107
     19847.3647     1.868254     1.994512
     24878.3167     1.923267     2.499460
     29767.1203     1.966990     3.001672
     34426.6017     1.999858     3.496252
     38958.8565     2.023593     3.998074
     47760.2737     2.052078     4.999100
     56633.1578     2.070015     6.002109
     65249.2324     2.084462     6.994216
     73507.9728     2.097104     7.997122
     80679.0035     2.107482     8.998434
     86331.9526     2.115389     9.997624
     94496.4510     2.126683    12.001465
     87500.5534     2.117114     9.997327
     82374.5741     2.109857     8.998105
     75340.1943     2.099836     7.996736
     66970.7196     2.087312     6.993809
     58235.2717     2.072932     6.001714
     49229.6635     2.055424     4.998737
     40290.0247     2.029135     3.997788
     31095.1471     1.977232     3.001442
     21143.1922     1.883672     1.994353
     16091.8211     1.819868     1.499482
     10866.1023     1.737895     0.996470
      9839.6499     1.719326     0.897517
      8761.3644     1.698780     0.794730
      7746.6922     1.678213     0.698130
      6686.4697     1.655255     0.598268
      5598.7600     1.630058     0.496193
      4529.1133     1.603199     0.396440
      3483.0272     1.574373     0.298881
      2367.8302     1.539654     0.196040
      2238.2474     1.535545     0.183781
      2148.7175     1.532639     0.175284
      2023.8469     1.528338     0.163799
      1929.6049     1.524907     0.155080
      1836.1483     1.521391     0.146467
      1704.9948     1.516680     0.134272
      1609.1821     1.513198     0.125602
      1517.2962     1.509767     0.117173
      1390.0695     1.504914     0.105699
      1294.2568     1.501026     0.097102
      1147.3963     1.494610     0.083895
      1019.3843     1.488733     0.072400
       922.7862     1.483997     0.063731
       827.7589     1.479352     0.055296
       697.3908     1.472039     0.043898
       590.5832     1.465041     0.034448
       493.1998     1.457686     0.025834
       369.8998     1.445278     0.014386
       284.2967     1.432524     0.005777
       217.5419     1.414845    -0.002586
       168.8502     1.388944    -0.010992
       130.3681     1.353007    -0.019701
        95.0273     1.291385    -0.031240
        73.0375     1.236411    -0.039869
        59.6866     1.197141    -0.045521
        53.4038     1.169729    -0.049334
        42.4089     1.123973    -0.054995
        32.1993     1.072714    -0.060827
        28.2726     1.048316    -0.063647
        18.8484     0.992570    -0.069300
         5.4974     0.895706    -0.077964
        -6.2828     0.749511    -0.089410
       -17.2777     0.546843    -0.102849
       -21.2044     0.399918    -0.111544
       -22.7751     0.176223    -0.123037
       -26.7019     0.000281    -0.131499
       -30.6286    -0.187833    -0.140123
       -36.9114    -0.421560    -0.152353
       -44.7649    -0.560819    -0.160979
       -53.4038    -0.688762    -0.169613
       -68.3254    -0.839340    -0.181028
       -71.4668    -0.867918    -0.183824
       -79.3203    -0.928539    -0.189437
       -98.1687    -1.026578    -0.199063
      -105.2369    -1.049579    -0.201932
      -157.8553    -1.214156    -0.222137
      -237.9610    -1.330472    -0.243004
      -441.3667    -1.418136    -0.271612
      -790.8474    -1.461342    -0.305085
     -1219.6485    -1.488723    -0.343005
     -1542.4274    -1.503945    -0.371530
     -1891.1228    -1.518213    -0.402498
     -3004.7490    -1.557137    -0.502646
     -4126.2288    -1.589979    -0.604677
     -5208.4411    -1.618431    -0.704620
     -6242.7470    -1.643394    -0.800969
     -7343.8077    -1.667955    -0.904135
     -8394.6059    -1.689972    -1.003180
    -18796.5664    -1.855290    -2.001377
    -38156.2288    -2.020025    -4.005483
    -56033.1504    -2.069105    -6.009462
    -73156.1360    -2.096534    -8.005541
    -86316.2456    -2.115387   -10.006006
    -94579.6981    -2.126683   -12.010261
    -87594.0100    -2.117213   -10.005926
    -75464.2796    -2.100148    -8.005470
    -58341.2940    -2.073122    -6.009421
    -40381.1253    -2.029653    -4.005461
    -21215.4444    -1.884603    -2.001389
    -10916.3647    -1.738573    -1.003201
     -8788.8516    -1.698984    -0.800988
     -6711.6009    -1.655472    -0.604667
     -4542.4643    -1.603145    -0.402480
     -3493.2367    -1.574416    -0.305091
     -2372.5423    -1.539932    -0.201909
     -2240.6035    -1.535353    -0.189416
     -2149.5029    -1.532625    -0.180999
     -2026.9883    -1.528393    -0.169590
     -1932.7463    -1.525170    -0.160928
     -1837.7190    -1.521944    -0.152299
     -1703.4241    -1.517051    -0.140076
     -1609.1821    -1.513692    -0.131456
     -1514.9401    -1.509975    -0.122991
     -1386.1427    -1.504764    -0.111479
     -1291.1154    -1.500858    -0.102785
     -1137.9721    -1.494262    -0.089357
     -1009.1747    -1.488363    -0.077934
      -911.7913    -1.483515    -0.069254
      -814.4079    -1.478496    -0.060790
      -682.4691    -1.470943    -0.049266
      -573.3055    -1.464183    -0.039831
      -475.9221    -1.456539    -0.031187
      -347.9100    -1.442945    -0.019634
      -264.6629    -1.428566    -0.010932
      -205.7617    -1.408214    -0.002530